instructions,false_label,true_label,trial_type,descriptor,blocks.thisRepN,blocks.thisTrialN,blocks.thisN,blocks.thisIndex,trials.thisRepN,trials.thisTrialN,trials.thisN,trials.thisIndex,required_response.keys,required_response.corr,required_response.rt,feedback_response.keys,feedback_response.corr,feedback_response.rt,participant,gender,age,frameRate,expName,date,
"In this reaction time task will you have to respond to words and statements that are presented on screen. 

The first phase presents both words in orange.

Your job is to categorise these words as referring to TRUE or FALSE.

Go as quickly as you can while being accurate.
If you make a mistake, hit the correct key as soon as possible.

Put your two index fingers on the E and I keys. Press either one to start.",FALSE,TRUE,2,inducer_2,0,0,0,0,0,0,0,1,e,1,0.638339042664,i,1,0.551842927933,,,,59.8752617747,RRT,2016_May_01_1658,
"In this reaction time task will you have to respond to words and statements that are presented on screen. 

The first phase presents both words in orange.

Your job is to categorise these words as referring to TRUE or FALSE.

Go as quickly as you can while being accurate.
If you make a mistake, hit the correct key as soon as possible.

Put your two index fingers on the E and I keys. Press either one to start.",FALSE,TRUE,2,inducer_2,0,0,0,0,0,1,1,1,e,1,0.267715930939,i,1,0.21786403656,,,,59.8752617747,RRT,2016_May_01_1658,
"In this reaction time task will you have to respond to words and statements that are presented on screen. 

The first phase presents both words in orange.

Your job is to categorise these words as referring to TRUE or FALSE.

Go as quickly as you can while being accurate.
If you make a mistake, hit the correct key as soon as possible.

Put your two index fingers on the E and I keys. Press either one to start.",FALSE,TRUE,1,inducer_1,0,0,0,0,1,0,2,0,i,1,0.16893196106,None,0,,,,,59.8752617747,RRT,2016_May_01_1658,
"In this reaction time task will you have to respond to words and statements that are presented on screen. 

The first phase presents both words in orange.

Your job is to categorise these words as referring to TRUE or FALSE.

Go as quickly as you can while being accurate.
If you make a mistake, hit the correct key as soon as possible.

Put your two index fingers on the E and I keys. Press either one to start.",FALSE,TRUE,2,inducer_2,0,0,0,0,1,1,3,1,e,1,0.252048015594,i,1,0.21866607666,,,,59.8752617747,RRT,2016_May_01_1658,
"In this reaction time task will you have to respond to words and statements that are presented on screen. 

The first phase presents both words in orange.

Your job is to categorise these words as referring to TRUE or FALSE.

Go as quickly as you can while being accurate.
If you make a mistake, hit the correct key as soon as possible.

Put your two index fingers on the E and I keys. Press either one to start.",FALSE,TRUE,1,inducer_1,0,0,0,0,2,0,4,0,i,1,0.185544967651,None,0,,,,,59.8752617747,RRT,2016_May_01_1658,
"In this reaction time task will you have to respond to words and statements that are presented on screen. 

The first phase presents both words in orange.

Your job is to categorise these words as referring to TRUE or FALSE.

Go as quickly as you can while being accurate.
If you make a mistake, hit the correct key as soon as possible.

Put your two index fingers on the E and I keys. Press either one to start.",FALSE,TRUE,1,inducer_1,0,0,0,0,2,1,5,0,i,1,0.251507043839,None,0,,,,,59.8752617747,RRT,2016_May_01_1658,
"In this reaction time task will you have to respond to words and statements that are presented on screen. 

The first phase presents both words in orange.

Your job is to categorise these words as referring to TRUE or FALSE.

Go as quickly as you can while being accurate.
If you make a mistake, hit the correct key as soon as possible.

Put your two index fingers on the E and I keys. Press either one to start.",FALSE,TRUE,1,inducer_1,0,0,0,0,3,0,6,0,i,1,0.234748125076,None,0,,,,,59.8752617747,RRT,2016_May_01_1658,
"In this reaction time task will you have to respond to words and statements that are presented on screen. 

The first phase presents both words in orange.

Your job is to categorise these words as referring to TRUE or FALSE.

Go as quickly as you can while being accurate.
If you make a mistake, hit the correct key as soon as possible.

Put your two index fingers on the E and I keys. Press either one to start.",FALSE,TRUE,2,inducer_2,0,0,0,0,3,1,7,1,e,1,0.28493309021,i,1,0.202168941498,,,,59.8752617747,RRT,2016_May_01_1658,
"In this reaction time task will you have to respond to words and statements that are presented on screen. 

The first phase presents both words in orange.

Your job is to categorise these words as referring to TRUE or FALSE.

Go as quickly as you can while being accurate.
If you make a mistake, hit the correct key as soon as possible.

Put your two index fingers on the E and I keys. Press either one to start.",FALSE,TRUE,2,inducer_2,0,0,0,0,4,0,8,1,e,1,0.218902111053,i,1,0.184933900833,,,,59.8752617747,RRT,2016_May_01_1658,
"In this reaction time task will you have to respond to words and statements that are presented on screen. 

The first phase presents both words in orange.

Your job is to categorise these words as referring to TRUE or FALSE.

Go as quickly as you can while being accurate.
If you make a mistake, hit the correct key as soon as possible.

Put your two index fingers on the E and I keys. Press either one to start.",FALSE,TRUE,2,inducer_2,0,0,0,0,4,1,9,1,e,1,0.201543807983,i,1,0.166895151138,,,,59.8752617747,RRT,2016_May_01_1658,
"In this reaction time task will you have to respond to words and statements that are presented on screen. 

The first phase presents both words in orange.

Your job is to categorise these words as referring to TRUE or FALSE.

Go as quickly as you can while being accurate.
If you make a mistake, hit the correct key as soon as possible.

Put your two index fingers on the E and I keys. Press either one to start.",FALSE,TRUE,1,inducer_1,0,0,0,0,5,0,10,0,i,1,0.184991121292,None,0,,,,,59.8752617747,RRT,2016_May_01_1658,
"In this reaction time task will you have to respond to words and statements that are presented on screen. 

The first phase presents both words in orange.

Your job is to categorise these words as referring to TRUE or FALSE.

Go as quickly as you can while being accurate.
If you make a mistake, hit the correct key as soon as possible.

Put your two index fingers on the E and I keys. Press either one to start.",FALSE,TRUE,1,inducer_1,0,0,0,0,5,1,11,0,i,1,0.202655076981,None,0,,,,,59.8752617747,RRT,2016_May_01_1658,
"In this reaction time task will you have to respond to words and statements that are presented on screen. 

The first phase presents both words in orange.

Your job is to categorise these words as referring to TRUE or FALSE.

Go as quickly as you can while being accurate.
If you make a mistake, hit the correct key as soon as possible.

Put your two index fingers on the E and I keys. Press either one to start.",FALSE,TRUE,1,inducer_1,0,0,0,0,6,0,12,0,i,1,0.202028036118,None,0,,,,,59.8752617747,RRT,2016_May_01_1658,
"In this reaction time task will you have to respond to words and statements that are presented on screen. 

The first phase presents both words in orange.

Your job is to categorise these words as referring to TRUE or FALSE.

Go as quickly as you can while being accurate.
If you make a mistake, hit the correct key as soon as possible.

Put your two index fingers on the E and I keys. Press either one to start.",FALSE,TRUE,2,inducer_2,0,0,0,0,6,1,13,1,e,1,0.251730918884,i,1,0.219496011734,,,,59.8752617747,RRT,2016_May_01_1658,
"In this reaction time task will you have to respond to words and statements that are presented on screen. 

The first phase presents both words in orange.

Your job is to categorise these words as referring to TRUE or FALSE.

Go as quickly as you can while being accurate.
If you make a mistake, hit the correct key as soon as possible.

Put your two index fingers on the E and I keys. Press either one to start.",FALSE,TRUE,1,inducer_1,0,0,0,0,7,0,14,0,i,1,0.167328119278,None,0,,,,,59.8752617747,RRT,2016_May_01_1658,
"In this reaction time task will you have to respond to words and statements that are presented on screen. 

The first phase presents both words in orange.

Your job is to categorise these words as referring to TRUE or FALSE.

Go as quickly as you can while being accurate.
If you make a mistake, hit the correct key as soon as possible.

Put your two index fingers on the E and I keys. Press either one to start.",FALSE,TRUE,2,inducer_2,0,0,0,0,7,1,15,1,e,1,0.267936944962,i,1,0.218414068222,,,,59.8752617747,RRT,2016_May_01_1658,
"In this reaction time task will you have to respond to words and statements that are presented on screen. 

The first phase presents both words in orange.

Your job is to categorise these words as referring to TRUE or FALSE.

Go as quickly as you can while being accurate.
If you make a mistake, hit the correct key as soon as possible.

Put your two index fingers on the E and I keys. Press either one to start.",FALSE,TRUE,2,inducer_2,0,0,0,0,8,0,16,1,e,1,0.251564025879,i,1,0.18510389328,,,,59.8752617747,RRT,2016_May_01_1658,
"In this reaction time task will you have to respond to words and statements that are presented on screen. 

The first phase presents both words in orange.

Your job is to categorise these words as referring to TRUE or FALSE.

Go as quickly as you can while being accurate.
If you make a mistake, hit the correct key as soon as possible.

Put your two index fingers on the E and I keys. Press either one to start.",FALSE,TRUE,2,inducer_2,0,0,0,0,8,1,17,1,e,1,0.202450037003,i,1,0.118505001068,,,,59.8752617747,RRT,2016_May_01_1658,
"In this reaction time task will you have to respond to words and statements that are presented on screen. 

The first phase presents both words in orange.

Your job is to categorise these words as referring to TRUE or FALSE.

Go as quickly as you can while being accurate.
If you make a mistake, hit the correct key as soon as possible.

Put your two index fingers on the E and I keys. Press either one to start.",FALSE,TRUE,1,inducer_1,0,0,0,0,9,0,18,0,i,1,0.13497209549,None,0,,,,,59.8752617747,RRT,2016_May_01_1658,
"In this reaction time task will you have to respond to words and statements that are presented on screen. 

The first phase presents both words in orange.

Your job is to categorise these words as referring to TRUE or FALSE.

Go as quickly as you can while being accurate.
If you make a mistake, hit the correct key as soon as possible.

Put your two index fingers on the E and I keys. Press either one to start.",FALSE,TRUE,1,inducer_1,0,0,0,0,9,1,19,0,i,1,0.219241142273,None,0,,,,,59.8752617747,RRT,2016_May_01_1658,
"The next phase presents statements about self esteem in blue.

You must respond AS IF 'I am good and not bad'.

For example:
When 'I am valuable' appears, respond with TRUE.
When 'I am worthless' appears, respond with FALSE.

Go as quickly as you can while being accurate.
If you make a mistake hit the correct key as soon as possible.

Press E or I to continue.",FALSE,TRUE,4,target_2,0,1,1,1,0,0,0,1,e,1,0.286194086075,i,1,0.252965927124,,,,59.8752617747,RRT,2016_May_01_1658,
"The next phase presents statements about self esteem in blue.

You must respond AS IF 'I am good and not bad'.

For example:
When 'I am valuable' appears, respond with TRUE.
When 'I am worthless' appears, respond with FALSE.

Go as quickly as you can while being accurate.
If you make a mistake hit the correct key as soon as possible.

Press E or I to continue.",FALSE,TRUE,3,target_1,0,1,1,1,0,1,1,0,i,1,0.118957996368,None,0,,,,,59.8752617747,RRT,2016_May_01_1658,
"The next phase presents statements about self esteem in blue.

You must respond AS IF 'I am good and not bad'.

For example:
When 'I am valuable' appears, respond with TRUE.
When 'I am worthless' appears, respond with FALSE.

Go as quickly as you can while being accurate.
If you make a mistake hit the correct key as soon as possible.

Press E or I to continue.",FALSE,TRUE,4,target_2,0,1,1,1,0,2,2,1,e,1,0.235859155655,i,1,0.151436090469,,,,59.8752617747,RRT,2016_May_01_1658,
"The next phase presents statements about self esteem in blue.

You must respond AS IF 'I am good and not bad'.

For example:
When 'I am valuable' appears, respond with TRUE.
When 'I am worthless' appears, respond with FALSE.

Go as quickly as you can while being accurate.
If you make a mistake hit the correct key as soon as possible.

Press E or I to continue.",FALSE,TRUE,4,target_2,0,1,1,1,0,3,3,1,e,1,0.166743993759,i,1,0.101971149445,,,,59.8752617747,RRT,2016_May_01_1658,
"The next phase presents statements about self esteem in blue.

You must respond AS IF 'I am good and not bad'.

For example:
When 'I am valuable' appears, respond with TRUE.
When 'I am worthless' appears, respond with FALSE.

Go as quickly as you can while being accurate.
If you make a mistake hit the correct key as soon as possible.

Press E or I to continue.",FALSE,TRUE,5,target_3,0,1,1,1,1,0,4,2,e,1,0.184851884842,i,1,0.118108034134,,,,59.8752617747,RRT,2016_May_01_1658,
"The next phase presents statements about self esteem in blue.

You must respond AS IF 'I am good and not bad'.

For example:
When 'I am valuable' appears, respond with TRUE.
When 'I am worthless' appears, respond with FALSE.

Go as quickly as you can while being accurate.
If you make a mistake hit the correct key as soon as possible.

Press E or I to continue.",FALSE,TRUE,6,target_4,0,1,1,1,1,1,5,3,i,1,0.150105953217,None,0,,,,,59.8752617747,RRT,2016_May_01_1658,
"The next phase presents statements about self esteem in blue.

You must respond AS IF 'I am good and not bad'.

For example:
When 'I am valuable' appears, respond with TRUE.
When 'I am worthless' appears, respond with FALSE.

Go as quickly as you can while being accurate.
If you make a mistake hit the correct key as soon as possible.

Press E or I to continue.",FALSE,TRUE,3,target_1,0,1,1,1,1,2,6,0,i,1,0.200515031815,None,0,,,,,59.8752617747,RRT,2016_May_01_1658,
"The next phase presents statements about self esteem in blue.

You must respond AS IF 'I am good and not bad'.

For example:
When 'I am valuable' appears, respond with TRUE.
When 'I am worthless' appears, respond with FALSE.

Go as quickly as you can while being accurate.
If you make a mistake hit the correct key as soon as possible.

Press E or I to continue.",FALSE,TRUE,5,target_3,0,1,1,1,1,3,7,2,e,1,0.234669923782,i,1,0.169258832932,,,,59.8752617747,RRT,2016_May_01_1658,
"The next phase presents statements about self esteem in blue.

You must respond AS IF 'I am good and not bad'.

For example:
When 'I am valuable' appears, respond with TRUE.
When 'I am worthless' appears, respond with FALSE.

Go as quickly as you can while being accurate.
If you make a mistake hit the correct key as soon as possible.

Press E or I to continue.",FALSE,TRUE,5,target_3,0,1,1,1,2,0,8,2,e,1,0.185126066208,i,1,0.101350784302,,,,59.8752617747,RRT,2016_May_01_1658,
"The next phase presents statements about self esteem in blue.

You must respond AS IF 'I am good and not bad'.

For example:
When 'I am valuable' appears, respond with TRUE.
When 'I am worthless' appears, respond with FALSE.

Go as quickly as you can while being accurate.
If you make a mistake hit the correct key as soon as possible.

Press E or I to continue.",FALSE,TRUE,6,target_4,0,1,1,1,2,1,9,3,i,1,0.0686569213867,None,0,,,,,59.8752617747,RRT,2016_May_01_1658,
"The next phase presents statements about self esteem in blue.

You must respond AS IF 'I am good and not bad'.

For example:
When 'I am valuable' appears, respond with TRUE.
When 'I am worthless' appears, respond with FALSE.

Go as quickly as you can while being accurate.
If you make a mistake hit the correct key as soon as possible.

Press E or I to continue.",FALSE,TRUE,4,target_2,0,1,1,1,2,2,10,1,e,1,0.286026000977,i,1,0.185437917709,,,,59.8752617747,RRT,2016_May_01_1658,
"The next phase presents statements about self esteem in blue.

You must respond AS IF 'I am good and not bad'.

For example:
When 'I am valuable' appears, respond with TRUE.
When 'I am worthless' appears, respond with FALSE.

Go as quickly as you can while being accurate.
If you make a mistake hit the correct key as soon as possible.

Press E or I to continue.",FALSE,TRUE,6,target_4,0,1,1,1,2,3,11,3,i,1,0.0850780010223,None,0,,,,,59.8752617747,RRT,2016_May_01_1658,
"The next phase presents statements about self esteem in blue.

You must respond AS IF 'I am good and not bad'.

For example:
When 'I am valuable' appears, respond with TRUE.
When 'I am worthless' appears, respond with FALSE.

Go as quickly as you can while being accurate.
If you make a mistake hit the correct key as soon as possible.

Press E or I to continue.",FALSE,TRUE,5,target_3,0,1,1,1,3,0,12,2,e,1,0.26723408699,i,1,0.185111045837,,,,59.8752617747,RRT,2016_May_01_1658,
"The next phase presents statements about self esteem in blue.

You must respond AS IF 'I am good and not bad'.

For example:
When 'I am valuable' appears, respond with TRUE.
When 'I am worthless' appears, respond with FALSE.

Go as quickly as you can while being accurate.
If you make a mistake hit the correct key as soon as possible.

Press E or I to continue.",FALSE,TRUE,3,target_1,0,1,1,1,3,1,13,0,i,1,0.103041887283,None,0,,,,,59.8752617747,RRT,2016_May_01_1658,
"The next phase presents statements about self esteem in blue.

You must respond AS IF 'I am good and not bad'.

For example:
When 'I am valuable' appears, respond with TRUE.
When 'I am worthless' appears, respond with FALSE.

Go as quickly as you can while being accurate.
If you make a mistake hit the correct key as soon as possible.

Press E or I to continue.",FALSE,TRUE,3,target_1,0,1,1,1,3,2,14,0,i,1,0.168437004089,None,0,,,,,59.8752617747,RRT,2016_May_01_1658,
"The next phase presents statements about self esteem in blue.

You must respond AS IF 'I am good and not bad'.

For example:
When 'I am valuable' appears, respond with TRUE.
When 'I am worthless' appears, respond with FALSE.

Go as quickly as you can while being accurate.
If you make a mistake hit the correct key as soon as possible.

Press E or I to continue.",FALSE,TRUE,4,target_2,0,1,1,1,3,3,15,1,e,1,0.302615880966,i,1,0.218007087708,,,,59.8752617747,RRT,2016_May_01_1658,
"The next phase presents statements about self esteem in blue.

You must respond AS IF 'I am good and not bad'.

For example:
When 'I am valuable' appears, respond with TRUE.
When 'I am worthless' appears, respond with FALSE.

Go as quickly as you can while being accurate.
If you make a mistake hit the correct key as soon as possible.

Press E or I to continue.",FALSE,TRUE,6,target_4,0,1,1,1,4,0,16,3,i,1,0.0840218067169,None,0,,,,,59.8752617747,RRT,2016_May_01_1658,
"The next phase presents statements about self esteem in blue.

You must respond AS IF 'I am good and not bad'.

For example:
When 'I am valuable' appears, respond with TRUE.
When 'I am worthless' appears, respond with FALSE.

Go as quickly as you can while being accurate.
If you make a mistake hit the correct key as soon as possible.

Press E or I to continue.",FALSE,TRUE,6,target_4,0,1,1,1,4,1,17,3,i,1,0.234368085861,None,0,,,,,59.8752617747,RRT,2016_May_01_1658,
"The next phase presents statements about self esteem in blue.

You must respond AS IF 'I am good and not bad'.

For example:
When 'I am valuable' appears, respond with TRUE.
When 'I am worthless' appears, respond with FALSE.

Go as quickly as you can while being accurate.
If you make a mistake hit the correct key as soon as possible.

Press E or I to continue.",FALSE,TRUE,3,target_1,0,1,1,1,4,2,18,0,i,1,0.150800943375,None,0,,,,,59.8752617747,RRT,2016_May_01_1658,
"The next phase presents statements about self esteem in blue.

You must respond AS IF 'I am good and not bad'.

For example:
When 'I am valuable' appears, respond with TRUE.
When 'I am worthless' appears, respond with FALSE.

Go as quickly as you can while being accurate.
If you make a mistake hit the correct key as soon as possible.

Press E or I to continue.",FALSE,TRUE,5,target_3,0,1,1,1,4,3,19,2,e,1,0.267552137375,i,1,0.201758146286,,,,59.8752617747,RRT,2016_May_01_1658,
"The next phase presents both the orange words and blue statements.

You must both respond to the statements in blue AS IF 'I am good and not bad',
and categorise the orange words as referring to TRUE or FALSE.

Go as quickly as you can while being accurate.
If you make a mistake hit the correct key as soon as possible.

Press E or I to continue.",FALSE,TRUE,1,inducer_1,0,2,2,2,0,0,0,0,i,1,0.16868185997,None,0,,,,,59.8752617747,RRT,2016_May_01_1658,
"The next phase presents both the orange words and blue statements.

You must both respond to the statements in blue AS IF 'I am good and not bad',
and categorise the orange words as referring to TRUE or FALSE.

Go as quickly as you can while being accurate.
If you make a mistake hit the correct key as soon as possible.

Press E or I to continue.",FALSE,TRUE,1,inducer_1,0,2,2,2,0,1,1,0,i,1,0.218827962875,None,0,,,,,59.8752617747,RRT,2016_May_01_1658,
"The next phase presents both the orange words and blue statements.

You must both respond to the statements in blue AS IF 'I am good and not bad',
and categorise the orange words as referring to TRUE or FALSE.

Go as quickly as you can while being accurate.
If you make a mistake hit the correct key as soon as possible.

Press E or I to continue.",FALSE,TRUE,5,target_3,0,2,2,2,0,2,2,4,e,1,0.318890094757,i,1,0.218131065369,,,,59.8752617747,RRT,2016_May_01_1658,
"The next phase presents both the orange words and blue statements.

You must both respond to the statements in blue AS IF 'I am good and not bad',
and categorise the orange words as referring to TRUE or FALSE.

Go as quickly as you can while being accurate.
If you make a mistake hit the correct key as soon as possible.

Press E or I to continue.",FALSE,TRUE,6,target_4,0,2,2,2,0,3,3,5,i,1,0.135542869568,None,0,,,,,59.8752617747,RRT,2016_May_01_1658,
"The next phase presents both the orange words and blue statements.

You must both respond to the statements in blue AS IF 'I am good and not bad',
and categorise the orange words as referring to TRUE or FALSE.

Go as quickly as you can while being accurate.
If you make a mistake hit the correct key as soon as possible.

Press E or I to continue.",FALSE,TRUE,6,target_4,0,2,2,2,0,4,4,5,i,1,0.219831943512,None,0,,,,,59.8752617747,RRT,2016_May_01_1658,
"The next phase presents both the orange words and blue statements.

You must both respond to the statements in blue AS IF 'I am good and not bad',
and categorise the orange words as referring to TRUE or FALSE.

Go as quickly as you can while being accurate.
If you make a mistake hit the correct key as soon as possible.

Press E or I to continue.",FALSE,TRUE,6,target_4,0,2,2,2,0,5,5,5,i,1,0.167840003967,None,0,,,,,59.8752617747,RRT,2016_May_01_1658,
"The next phase presents both the orange words and blue statements.

You must both respond to the statements in blue AS IF 'I am good and not bad',
and categorise the orange words as referring to TRUE or FALSE.

Go as quickly as you can while being accurate.
If you make a mistake hit the correct key as soon as possible.

Press E or I to continue.",FALSE,TRUE,4,target_2,0,2,2,2,1,0,6,3,e,1,0.251349925995,i,1,0.151257038116,,,,59.8752617747,RRT,2016_May_01_1658,
"The next phase presents both the orange words and blue statements.

You must both respond to the statements in blue AS IF 'I am good and not bad',
and categorise the orange words as referring to TRUE or FALSE.

Go as quickly as you can while being accurate.
If you make a mistake hit the correct key as soon as possible.

Press E or I to continue.",FALSE,TRUE,4,target_2,0,2,2,2,1,1,7,3,e,1,0.151703119278,i,1,0.0682179927826,,,,59.8752617747,RRT,2016_May_01_1658,
"The next phase presents both the orange words and blue statements.

You must both respond to the statements in blue AS IF 'I am good and not bad',
and categorise the orange words as referring to TRUE or FALSE.

Go as quickly as you can while being accurate.
If you make a mistake hit the correct key as soon as possible.

Press E or I to continue.",FALSE,TRUE,4,target_2,0,2,2,2,1,2,8,3,e,1,0.16748213768,i,1,0.101233005524,,,,59.8752617747,RRT,2016_May_01_1658,
"The next phase presents both the orange words and blue statements.

You must both respond to the statements in blue AS IF 'I am good and not bad',
and categorise the orange words as referring to TRUE or FALSE.

Go as quickly as you can while being accurate.
If you make a mistake hit the correct key as soon as possible.

Press E or I to continue.",FALSE,TRUE,6,target_4,0,2,2,2,1,3,9,5,i,1,0.11874294281,None,0,,,,,59.8752617747,RRT,2016_May_01_1658,
"The next phase presents both the orange words and blue statements.

You must both respond to the statements in blue AS IF 'I am good and not bad',
and categorise the orange words as referring to TRUE or FALSE.

Go as quickly as you can while being accurate.
If you make a mistake hit the correct key as soon as possible.

Press E or I to continue.",FALSE,TRUE,3,target_1,0,2,2,2,1,4,10,2,i,1,0.218221902847,None,0,,,,,59.8752617747,RRT,2016_May_01_1658,
"The next phase presents both the orange words and blue statements.

You must both respond to the statements in blue AS IF 'I am good and not bad',
and categorise the orange words as referring to TRUE or FALSE.

Go as quickly as you can while being accurate.
If you make a mistake hit the correct key as soon as possible.

Press E or I to continue.",FALSE,TRUE,2,inducer_2,0,2,2,2,1,5,11,1,e,1,0.234539985657,i,1,0.217636823654,,,,59.8752617747,RRT,2016_May_01_1658,
"The next phase presents both the orange words and blue statements.

You must both respond to the statements in blue AS IF 'I am good and not bad',
and categorise the orange words as referring to TRUE or FALSE.

Go as quickly as you can while being accurate.
If you make a mistake hit the correct key as soon as possible.

Press E or I to continue.",FALSE,TRUE,5,target_3,0,2,2,2,2,0,12,4,e,1,0.184605121613,i,1,0.118396043777,,,,59.8752617747,RRT,2016_May_01_1658,
"The next phase presents both the orange words and blue statements.

You must both respond to the statements in blue AS IF 'I am good and not bad',
and categorise the orange words as referring to TRUE or FALSE.

Go as quickly as you can while being accurate.
If you make a mistake hit the correct key as soon as possible.

Press E or I to continue.",FALSE,TRUE,3,target_1,0,2,2,2,2,1,13,2,i,1,0.117880105972,None,0,,,,,59.8752617747,RRT,2016_May_01_1658,
"The next phase presents both the orange words and blue statements.

You must both respond to the statements in blue AS IF 'I am good and not bad',
and categorise the orange words as referring to TRUE or FALSE.

Go as quickly as you can while being accurate.
If you make a mistake hit the correct key as soon as possible.

Press E or I to continue.",FALSE,TRUE,2,inducer_2,0,2,2,2,2,2,14,1,e,1,0.268697023392,i,1,0.201327085495,,,,59.8752617747,RRT,2016_May_01_1658,
"The next phase presents both the orange words and blue statements.

You must both respond to the statements in blue AS IF 'I am good and not bad',
and categorise the orange words as referring to TRUE or FALSE.

Go as quickly as you can while being accurate.
If you make a mistake hit the correct key as soon as possible.

Press E or I to continue.",FALSE,TRUE,2,inducer_2,0,2,2,2,2,3,15,1,e,1,0.184312105179,i,1,0.117630958557,,,,59.8752617747,RRT,2016_May_01_1658,
"The next phase presents both the orange words and blue statements.

You must both respond to the statements in blue AS IF 'I am good and not bad',
and categorise the orange words as referring to TRUE or FALSE.

Go as quickly as you can while being accurate.
If you make a mistake hit the correct key as soon as possible.

Press E or I to continue.",FALSE,TRUE,4,target_2,0,2,2,2,2,4,16,3,e,1,0.184535980225,i,1,0.101603984833,,,,59.8752617747,RRT,2016_May_01_1658,
"The next phase presents both the orange words and blue statements.

You must both respond to the statements in blue AS IF 'I am good and not bad',
and categorise the orange words as referring to TRUE or FALSE.

Go as quickly as you can while being accurate.
If you make a mistake hit the correct key as soon as possible.

Press E or I to continue.",FALSE,TRUE,6,target_4,0,2,2,2,2,5,17,5,i,1,0.100818157196,None,0,,,,,59.8752617747,RRT,2016_May_01_1658,
"The next phase presents both the orange words and blue statements.

You must both respond to the statements in blue AS IF 'I am good and not bad',
and categorise the orange words as referring to TRUE or FALSE.

Go as quickly as you can while being accurate.
If you make a mistake hit the correct key as soon as possible.

Press E or I to continue.",FALSE,TRUE,4,target_2,0,2,2,2,3,0,18,3,e,1,0.268642902374,i,1,0.201580047607,,,,59.8752617747,RRT,2016_May_01_1658,
"The next phase presents both the orange words and blue statements.

You must both respond to the statements in blue AS IF 'I am good and not bad',
and categorise the orange words as referring to TRUE or FALSE.

Go as quickly as you can while being accurate.
If you make a mistake hit the correct key as soon as possible.

Press E or I to continue.",FALSE,TRUE,5,target_3,0,2,2,2,3,1,19,4,e,1,0.219936132431,i,1,0.169731855392,,,,59.8752617747,RRT,2016_May_01_1658,
"The next phase presents both the orange words and blue statements.

You must both respond to the statements in blue AS IF 'I am good and not bad',
and categorise the orange words as referring to TRUE or FALSE.

Go as quickly as you can while being accurate.
If you make a mistake hit the correct key as soon as possible.

Press E or I to continue.",FALSE,TRUE,1,inducer_1,0,2,2,2,3,2,20,0,i,1,0.119117021561,None,0,,,,,59.8752617747,RRT,2016_May_01_1658,
"The next phase presents both the orange words and blue statements.

You must both respond to the statements in blue AS IF 'I am good and not bad',
and categorise the orange words as referring to TRUE or FALSE.

Go as quickly as you can while being accurate.
If you make a mistake hit the correct key as soon as possible.

Press E or I to continue.",FALSE,TRUE,2,inducer_2,0,2,2,2,3,3,21,1,e,1,0.253170967102,i,1,0.168380975723,,,,59.8752617747,RRT,2016_May_01_1658,
"The next phase presents both the orange words and blue statements.

You must both respond to the statements in blue AS IF 'I am good and not bad',
and categorise the orange words as referring to TRUE or FALSE.

Go as quickly as you can while being accurate.
If you make a mistake hit the correct key as soon as possible.

Press E or I to continue.",FALSE,TRUE,4,target_2,0,2,2,2,3,4,22,3,e,1,0.151160001755,i,1,0.102225065231,,,,59.8752617747,RRT,2016_May_01_1658,
"The next phase presents both the orange words and blue statements.

You must both respond to the statements in blue AS IF 'I am good and not bad',
and categorise the orange words as referring to TRUE or FALSE.

Go as quickly as you can while being accurate.
If you make a mistake hit the correct key as soon as possible.

Press E or I to continue.",FALSE,TRUE,5,target_3,0,2,2,2,3,5,23,4,e,1,0.201481103897,i,1,0.134876966476,,,,59.8752617747,RRT,2016_May_01_1658,
"The next phase presents both the orange words and blue statements.

You must both respond to the statements in blue AS IF 'I am good and not bad',
and categorise the orange words as referring to TRUE or FALSE.

Go as quickly as you can while being accurate.
If you make a mistake hit the correct key as soon as possible.

Press E or I to continue.",FALSE,TRUE,5,target_3,0,2,2,2,4,0,24,4,e,1,0.234874010086,i,1,0.151211977005,,,,59.8752617747,RRT,2016_May_01_1658,
"The next phase presents both the orange words and blue statements.

You must both respond to the statements in blue AS IF 'I am good and not bad',
and categorise the orange words as referring to TRUE or FALSE.

Go as quickly as you can while being accurate.
If you make a mistake hit the correct key as soon as possible.

Press E or I to continue.",FALSE,TRUE,2,inducer_2,0,2,2,2,4,1,25,1,e,1,0.267359972,i,1,0.168256998062,,,,59.8752617747,RRT,2016_May_01_1658,
"The next phase presents both the orange words and blue statements.

You must both respond to the statements in blue AS IF 'I am good and not bad',
and categorise the orange words as referring to TRUE or FALSE.

Go as quickly as you can while being accurate.
If you make a mistake hit the correct key as soon as possible.

Press E or I to continue.",FALSE,TRUE,5,target_3,0,2,2,2,4,2,26,4,e,1,0.251731157303,i,1,0.15184378624,,,,59.8752617747,RRT,2016_May_01_1658,
"The next phase presents both the orange words and blue statements.

You must both respond to the statements in blue AS IF 'I am good and not bad',
and categorise the orange words as referring to TRUE or FALSE.

Go as quickly as you can while being accurate.
If you make a mistake hit the correct key as soon as possible.

Press E or I to continue.",FALSE,TRUE,3,target_1,0,2,2,2,4,3,27,2,i,1,0.152070045471,None,0,,,,,59.8752617747,RRT,2016_May_01_1658,
"The next phase presents both the orange words and blue statements.

You must both respond to the statements in blue AS IF 'I am good and not bad',
and categorise the orange words as referring to TRUE or FALSE.

Go as quickly as you can while being accurate.
If you make a mistake hit the correct key as soon as possible.

Press E or I to continue.",FALSE,TRUE,4,target_2,0,2,2,2,4,4,28,3,e,1,0.218480825424,i,1,0.168533086777,,,,59.8752617747,RRT,2016_May_01_1658,
"The next phase presents both the orange words and blue statements.

You must both respond to the statements in blue AS IF 'I am good and not bad',
and categorise the orange words as referring to TRUE or FALSE.

Go as quickly as you can while being accurate.
If you make a mistake hit the correct key as soon as possible.

Press E or I to continue.",FALSE,TRUE,6,target_4,0,2,2,2,4,5,29,5,i,1,0.101298809052,None,0,,,,,59.8752617747,RRT,2016_May_01_1658,
"The next phase presents both the orange words and blue statements.

You must both respond to the statements in blue AS IF 'I am good and not bad',
and categorise the orange words as referring to TRUE or FALSE.

Go as quickly as you can while being accurate.
If you make a mistake hit the correct key as soon as possible.

Press E or I to continue.",FALSE,TRUE,2,inducer_2,0,2,2,2,5,0,30,1,e,1,0.234776973724,i,1,0.150768041611,,,,59.8752617747,RRT,2016_May_01_1658,
"The next phase presents both the orange words and blue statements.

You must both respond to the statements in blue AS IF 'I am good and not bad',
and categorise the orange words as referring to TRUE or FALSE.

Go as quickly as you can while being accurate.
If you make a mistake hit the correct key as soon as possible.

Press E or I to continue.",FALSE,TRUE,1,inducer_1,0,2,2,2,5,1,31,0,i,1,0.151642084122,None,0,,,,,59.8752617747,RRT,2016_May_01_1658,
"The next phase presents both the orange words and blue statements.

You must both respond to the statements in blue AS IF 'I am good and not bad',
and categorise the orange words as referring to TRUE or FALSE.

Go as quickly as you can while being accurate.
If you make a mistake hit the correct key as soon as possible.

Press E or I to continue.",FALSE,TRUE,3,target_1,0,2,2,2,5,2,32,2,i,1,0.100945949554,None,0,,,,,59.8752617747,RRT,2016_May_01_1658,
"The next phase presents both the orange words and blue statements.

You must both respond to the statements in blue AS IF 'I am good and not bad',
and categorise the orange words as referring to TRUE or FALSE.

Go as quickly as you can while being accurate.
If you make a mistake hit the correct key as soon as possible.

Press E or I to continue.",FALSE,TRUE,2,inducer_2,0,2,2,2,5,3,33,1,e,1,0.251345157623,i,1,0.202025175095,,,,59.8752617747,RRT,2016_May_01_1658,
"The next phase presents both the orange words and blue statements.

You must both respond to the statements in blue AS IF 'I am good and not bad',
and categorise the orange words as referring to TRUE or FALSE.

Go as quickly as you can while being accurate.
If you make a mistake hit the correct key as soon as possible.

Press E or I to continue.",FALSE,TRUE,6,target_4,0,2,2,2,5,4,34,5,i,1,0.151915073395,None,0,,,,,59.8752617747,RRT,2016_May_01_1658,
"The next phase presents both the orange words and blue statements.

You must both respond to the statements in blue AS IF 'I am good and not bad',
and categorise the orange words as referring to TRUE or FALSE.

Go as quickly as you can while being accurate.
If you make a mistake hit the correct key as soon as possible.

Press E or I to continue.",FALSE,TRUE,1,inducer_1,0,2,2,2,5,5,35,0,i,1,0.151443958282,None,0,,,,,59.8752617747,RRT,2016_May_01_1658,
"The next phase presents both the orange words and blue statements.

You must both respond to the statements in blue AS IF 'I am good and not bad',
and categorise the orange words as referring to TRUE or FALSE.

Go as quickly as you can while being accurate.
If you make a mistake hit the correct key as soon as possible.

Press E or I to continue.",FALSE,TRUE,5,target_3,0,2,2,2,6,0,36,4,e,1,0.284809827805,i,1,0.201787948608,,,,59.8752617747,RRT,2016_May_01_1658,
"The next phase presents both the orange words and blue statements.

You must both respond to the statements in blue AS IF 'I am good and not bad',
and categorise the orange words as referring to TRUE or FALSE.

Go as quickly as you can while being accurate.
If you make a mistake hit the correct key as soon as possible.

Press E or I to continue.",FALSE,TRUE,1,inducer_1,0,2,2,2,6,1,37,0,i,1,0.118347167969,None,0,,,,,59.8752617747,RRT,2016_May_01_1658,
"The next phase presents both the orange words and blue statements.

You must both respond to the statements in blue AS IF 'I am good and not bad',
and categorise the orange words as referring to TRUE or FALSE.

Go as quickly as you can while being accurate.
If you make a mistake hit the correct key as soon as possible.

Press E or I to continue.",FALSE,TRUE,6,target_4,0,2,2,2,6,2,38,5,i,1,0.169174909592,None,0,,,,,59.8752617747,RRT,2016_May_01_1658,
"The next phase presents both the orange words and blue statements.

You must both respond to the statements in blue AS IF 'I am good and not bad',
and categorise the orange words as referring to TRUE or FALSE.

Go as quickly as you can while being accurate.
If you make a mistake hit the correct key as soon as possible.

Press E or I to continue.",FALSE,TRUE,6,target_4,0,2,2,2,6,3,39,5,i,1,0.200057029724,None,0,,,,,59.8752617747,RRT,2016_May_01_1658,
"The next phase presents both the orange words and blue statements.

You must both respond to the statements in blue AS IF 'I am good and not bad',
and categorise the orange words as referring to TRUE or FALSE.

Go as quickly as you can while being accurate.
If you make a mistake hit the correct key as soon as possible.

Press E or I to continue.",FALSE,TRUE,5,target_3,0,2,2,2,6,4,40,4,e,1,0.269240140915,i,1,0.217458963394,,,,59.8752617747,RRT,2016_May_01_1658,
"The next phase presents both the orange words and blue statements.

You must both respond to the statements in blue AS IF 'I am good and not bad',
and categorise the orange words as referring to TRUE or FALSE.

Go as quickly as you can while being accurate.
If you make a mistake hit the correct key as soon as possible.

Press E or I to continue.",FALSE,TRUE,3,target_1,0,2,2,2,6,5,41,2,i,1,0.186066865921,e,1,0.185795783997,,,,59.8752617747,RRT,2016_May_01_1658,
"The next phase presents both the orange words and blue statements.

You must both respond to the statements in blue AS IF 'I am good and not bad',
and categorise the orange words as referring to TRUE or FALSE.

Go as quickly as you can while being accurate.
If you make a mistake hit the correct key as soon as possible.

Press E or I to continue.",FALSE,TRUE,3,target_1,0,2,2,2,7,0,42,2,i,1,0.150917053223,None,0,,,,,59.8752617747,RRT,2016_May_01_1658,
"The next phase presents both the orange words and blue statements.

You must both respond to the statements in blue AS IF 'I am good and not bad',
and categorise the orange words as referring to TRUE or FALSE.

Go as quickly as you can while being accurate.
If you make a mistake hit the correct key as soon as possible.

Press E or I to continue.",FALSE,TRUE,3,target_1,0,2,2,2,7,1,43,2,i,1,0.134648084641,None,0,,,,,59.8752617747,RRT,2016_May_01_1658,
"The next phase presents both the orange words and blue statements.

You must both respond to the statements in blue AS IF 'I am good and not bad',
and categorise the orange words as referring to TRUE or FALSE.

Go as quickly as you can while being accurate.
If you make a mistake hit the correct key as soon as possible.

Press E or I to continue.",FALSE,TRUE,2,inducer_2,0,2,2,2,7,2,44,1,e,1,0.218827962875,i,1,0.150073051453,,,,59.8752617747,RRT,2016_May_01_1658,
"The next phase presents both the orange words and blue statements.

You must both respond to the statements in blue AS IF 'I am good and not bad',
and categorise the orange words as referring to TRUE or FALSE.

Go as quickly as you can while being accurate.
If you make a mistake hit the correct key as soon as possible.

Press E or I to continue.",FALSE,TRUE,6,target_4,0,2,2,2,7,3,45,5,i,1,0.134371995926,None,0,,,,,59.8752617747,RRT,2016_May_01_1658,
"The next phase presents both the orange words and blue statements.

You must both respond to the statements in blue AS IF 'I am good and not bad',
and categorise the orange words as referring to TRUE or FALSE.

Go as quickly as you can while being accurate.
If you make a mistake hit the correct key as soon as possible.

Press E or I to continue.",FALSE,TRUE,1,inducer_1,0,2,2,2,7,4,46,0,i,1,0.167896032333,None,0,,,,,59.8752617747,RRT,2016_May_01_1658,
"The next phase presents both the orange words and blue statements.

You must both respond to the statements in blue AS IF 'I am good and not bad',
and categorise the orange words as referring to TRUE or FALSE.

Go as quickly as you can while being accurate.
If you make a mistake hit the correct key as soon as possible.

Press E or I to continue.",FALSE,TRUE,5,target_3,0,2,2,2,7,5,47,4,e,1,0.219975948334,i,1,0.168238162994,,,,59.8752617747,RRT,2016_May_01_1658,
"The next phase presents both the orange words and blue statements.

You must both respond to the statements in blue AS IF 'I am good and not bad',
and categorise the orange words as referring to TRUE or FALSE.

Go as quickly as you can while being accurate.
If you make a mistake hit the correct key as soon as possible.

Press E or I to continue.",FALSE,TRUE,1,inducer_1,0,2,2,2,8,0,48,0,i,1,0.15127491951,None,0,,,,,59.8752617747,RRT,2016_May_01_1658,
"The next phase presents both the orange words and blue statements.

You must both respond to the statements in blue AS IF 'I am good and not bad',
and categorise the orange words as referring to TRUE or FALSE.

Go as quickly as you can while being accurate.
If you make a mistake hit the correct key as soon as possible.

Press E or I to continue.",FALSE,TRUE,2,inducer_2,0,2,2,2,8,1,49,1,e,1,0.268202066422,i,1,0.201229095459,,,,59.8752617747,RRT,2016_May_01_1658,
"The next phase presents both the orange words and blue statements.

You must both respond to the statements in blue AS IF 'I am good and not bad',
and categorise the orange words as referring to TRUE or FALSE.

Go as quickly as you can while being accurate.
If you make a mistake hit the correct key as soon as possible.

Press E or I to continue.",FALSE,TRUE,3,target_1,0,2,2,2,8,2,50,2,i,1,0.13592004776,None,0,,,,,59.8752617747,RRT,2016_May_01_1658,
"The next phase presents both the orange words and blue statements.

You must both respond to the statements in blue AS IF 'I am good and not bad',
and categorise the orange words as referring to TRUE or FALSE.

Go as quickly as you can while being accurate.
If you make a mistake hit the correct key as soon as possible.

Press E or I to continue.",FALSE,TRUE,2,inducer_2,0,2,2,2,8,3,51,1,e,1,0.235147953033,i,1,0.18498301506,,,,59.8752617747,RRT,2016_May_01_1658,
"The next phase presents both the orange words and blue statements.

You must both respond to the statements in blue AS IF 'I am good and not bad',
and categorise the orange words as referring to TRUE or FALSE.

Go as quickly as you can while being accurate.
If you make a mistake hit the correct key as soon as possible.

Press E or I to continue.",FALSE,TRUE,4,target_2,0,2,2,2,8,4,52,3,e,1,0.184537172318,i,1,0.137140989304,,,,59.8752617747,RRT,2016_May_01_1658,
"The next phase presents both the orange words and blue statements.

You must both respond to the statements in blue AS IF 'I am good and not bad',
and categorise the orange words as referring to TRUE or FALSE.

Go as quickly as you can while being accurate.
If you make a mistake hit the correct key as soon as possible.

Press E or I to continue.",FALSE,TRUE,4,target_2,0,2,2,2,8,5,53,3,e,1,0.200721979141,i,1,0.0997180938721,,,,59.8752617747,RRT,2016_May_01_1658,
"The next phase presents both the orange words and blue statements.

You must both respond to the statements in blue AS IF 'I am good and not bad',
and categorise the orange words as referring to TRUE or FALSE.

Go as quickly as you can while being accurate.
If you make a mistake hit the correct key as soon as possible.

Press E or I to continue.",FALSE,TRUE,3,target_1,0,2,2,2,9,0,54,2,i,1,0.0522589683533,None,0,,,,,59.8752617747,RRT,2016_May_01_1658,
"The next phase presents both the orange words and blue statements.

You must both respond to the statements in blue AS IF 'I am good and not bad',
and categorise the orange words as referring to TRUE or FALSE.

Go as quickly as you can while being accurate.
If you make a mistake hit the correct key as soon as possible.

Press E or I to continue.",FALSE,TRUE,3,target_1,0,2,2,2,9,1,55,2,i,1,0.167759180069,None,0,,,,,59.8752617747,RRT,2016_May_01_1658,
"The next phase presents both the orange words and blue statements.

You must both respond to the statements in blue AS IF 'I am good and not bad',
and categorise the orange words as referring to TRUE or FALSE.

Go as quickly as you can while being accurate.
If you make a mistake hit the correct key as soon as possible.

Press E or I to continue.",FALSE,TRUE,5,target_3,0,2,2,2,9,2,56,4,e,1,0.3032310009,i,1,0.185767889023,,,,59.8752617747,RRT,2016_May_01_1658,
"The next phase presents both the orange words and blue statements.

You must both respond to the statements in blue AS IF 'I am good and not bad',
and categorise the orange words as referring to TRUE or FALSE.

Go as quickly as you can while being accurate.
If you make a mistake hit the correct key as soon as possible.

Press E or I to continue.",FALSE,TRUE,1,inducer_1,0,2,2,2,9,3,57,0,i,1,0.118601083755,None,0,,,,,59.8752617747,RRT,2016_May_01_1658,
"The next phase presents both the orange words and blue statements.

You must both respond to the statements in blue AS IF 'I am good and not bad',
and categorise the orange words as referring to TRUE or FALSE.

Go as quickly as you can while being accurate.
If you make a mistake hit the correct key as soon as possible.

Press E or I to continue.",FALSE,TRUE,1,inducer_1,0,2,2,2,9,4,58,0,i,1,0.135110139847,None,0,,,,,59.8752617747,RRT,2016_May_01_1658,
"The next phase presents both the orange words and blue statements.

You must both respond to the statements in blue AS IF 'I am good and not bad',
and categorise the orange words as referring to TRUE or FALSE.

Go as quickly as you can while being accurate.
If you make a mistake hit the correct key as soon as possible.

Press E or I to continue.",FALSE,TRUE,4,target_2,0,2,2,2,9,5,59,3,e,1,0.252562046051,i,1,0.185618162155,,,,59.8752617747,RRT,2016_May_01_1658,
"The next phase presents only the blue statements.

IMPORANT: THE RULE FOR THE BLUE STATEMENTS HAS NOW CHANGED.

You must respond AS IF 'I am bad and not good'.

For example:
When 'I am valuable' appears, respond with FALSE.
When 'I am worthless' appears, respond with TRUE.

Go as quickly as you can while being accurate.
If you make a mistake, hit the correct key as soon as possible.

Press E or I to continue.",FALSE,TRUE,4,target_2,0,3,3,3,0,0,0,1,i,1,0.201401948929,None,0,,,,,59.8752617747,RRT,2016_May_01_1658,
"The next phase presents only the blue statements.

IMPORANT: THE RULE FOR THE BLUE STATEMENTS HAS NOW CHANGED.

You must respond AS IF 'I am bad and not good'.

For example:
When 'I am valuable' appears, respond with FALSE.
When 'I am worthless' appears, respond with TRUE.

Go as quickly as you can while being accurate.
If you make a mistake, hit the correct key as soon as possible.

Press E or I to continue.",FALSE,TRUE,4,target_2,0,3,3,3,0,1,1,1,i,1,0.167650222778,None,0,,,,,59.8752617747,RRT,2016_May_01_1658,
"The next phase presents only the blue statements.

IMPORANT: THE RULE FOR THE BLUE STATEMENTS HAS NOW CHANGED.

You must respond AS IF 'I am bad and not good'.

For example:
When 'I am valuable' appears, respond with FALSE.
When 'I am worthless' appears, respond with TRUE.

Go as quickly as you can while being accurate.
If you make a mistake, hit the correct key as soon as possible.

Press E or I to continue.",FALSE,TRUE,3,target_1,0,3,3,3,0,2,2,0,e,1,0.218279838562,i,1,0.167727947235,,,,59.8752617747,RRT,2016_May_01_1658,
"The next phase presents only the blue statements.

IMPORANT: THE RULE FOR THE BLUE STATEMENTS HAS NOW CHANGED.

You must respond AS IF 'I am bad and not good'.

For example:
When 'I am valuable' appears, respond with FALSE.
When 'I am worthless' appears, respond with TRUE.

Go as quickly as you can while being accurate.
If you make a mistake, hit the correct key as soon as possible.

Press E or I to continue.",FALSE,TRUE,6,target_4,0,3,3,3,0,3,3,3,e,1,0.118534088135,i,1,0.100626945496,,,,59.8752617747,RRT,2016_May_01_1658,
"The next phase presents only the blue statements.

IMPORANT: THE RULE FOR THE BLUE STATEMENTS HAS NOW CHANGED.

You must respond AS IF 'I am bad and not good'.

For example:
When 'I am valuable' appears, respond with FALSE.
When 'I am worthless' appears, respond with TRUE.

Go as quickly as you can while being accurate.
If you make a mistake, hit the correct key as soon as possible.

Press E or I to continue.",FALSE,TRUE,6,target_4,0,3,3,3,1,0,4,3,e,1,0.201910018921,i,1,0.151657819748,,,,59.8752617747,RRT,2016_May_01_1658,
"The next phase presents only the blue statements.

IMPORANT: THE RULE FOR THE BLUE STATEMENTS HAS NOW CHANGED.

You must respond AS IF 'I am bad and not good'.

For example:
When 'I am valuable' appears, respond with FALSE.
When 'I am worthless' appears, respond with TRUE.

Go as quickly as you can while being accurate.
If you make a mistake, hit the correct key as soon as possible.

Press E or I to continue.",FALSE,TRUE,5,target_3,0,3,3,3,1,1,5,2,i,1,0.134453058243,None,0,,,,,59.8752617747,RRT,2016_May_01_1658,
"The next phase presents only the blue statements.

IMPORANT: THE RULE FOR THE BLUE STATEMENTS HAS NOW CHANGED.

You must respond AS IF 'I am bad and not good'.

For example:
When 'I am valuable' appears, respond with FALSE.
When 'I am worthless' appears, respond with TRUE.

Go as quickly as you can while being accurate.
If you make a mistake, hit the correct key as soon as possible.

Press E or I to continue.",FALSE,TRUE,3,target_1,0,3,3,3,1,2,6,0,e,1,0.234934091568,i,1,0.185173988342,,,,59.8752617747,RRT,2016_May_01_1658,
"The next phase presents only the blue statements.

IMPORANT: THE RULE FOR THE BLUE STATEMENTS HAS NOW CHANGED.

You must respond AS IF 'I am bad and not good'.

For example:
When 'I am valuable' appears, respond with FALSE.
When 'I am worthless' appears, respond with TRUE.

Go as quickly as you can while being accurate.
If you make a mistake, hit the correct key as soon as possible.

Press E or I to continue.",FALSE,TRUE,4,target_2,0,3,3,3,1,3,7,1,i,1,0.119074106216,None,0,,,,,59.8752617747,RRT,2016_May_01_1658,
"The next phase presents only the blue statements.

IMPORANT: THE RULE FOR THE BLUE STATEMENTS HAS NOW CHANGED.

You must respond AS IF 'I am bad and not good'.

For example:
When 'I am valuable' appears, respond with FALSE.
When 'I am worthless' appears, respond with TRUE.

Go as quickly as you can while being accurate.
If you make a mistake, hit the correct key as soon as possible.

Press E or I to continue.",FALSE,TRUE,5,target_3,0,3,3,3,2,0,8,2,i,1,0.201534986496,None,0,,,,,59.8752617747,RRT,2016_May_01_1658,
"The next phase presents only the blue statements.

IMPORANT: THE RULE FOR THE BLUE STATEMENTS HAS NOW CHANGED.

You must respond AS IF 'I am bad and not good'.

For example:
When 'I am valuable' appears, respond with FALSE.
When 'I am worthless' appears, respond with TRUE.

Go as quickly as you can while being accurate.
If you make a mistake, hit the correct key as soon as possible.

Press E or I to continue.",FALSE,TRUE,5,target_3,0,3,3,3,2,1,9,2,i,1,0.135056972504,None,0,,,,,59.8752617747,RRT,2016_May_01_1658,
"The next phase presents only the blue statements.

IMPORANT: THE RULE FOR THE BLUE STATEMENTS HAS NOW CHANGED.

You must respond AS IF 'I am bad and not good'.

For example:
When 'I am valuable' appears, respond with FALSE.
When 'I am worthless' appears, respond with TRUE.

Go as quickly as you can while being accurate.
If you make a mistake, hit the correct key as soon as possible.

Press E or I to continue.",FALSE,TRUE,5,target_3,0,3,3,3,2,2,10,2,i,1,0.15218091011,None,0,,,,,59.8752617747,RRT,2016_May_01_1658,
"The next phase presents only the blue statements.

IMPORANT: THE RULE FOR THE BLUE STATEMENTS HAS NOW CHANGED.

You must respond AS IF 'I am bad and not good'.

For example:
When 'I am valuable' appears, respond with FALSE.
When 'I am worthless' appears, respond with TRUE.

Go as quickly as you can while being accurate.
If you make a mistake, hit the correct key as soon as possible.

Press E or I to continue.",FALSE,TRUE,6,target_4,0,3,3,3,2,3,11,3,e,1,0.184499025345,i,1,0.118518829346,,,,59.8752617747,RRT,2016_May_01_1658,
"The next phase presents only the blue statements.

IMPORANT: THE RULE FOR THE BLUE STATEMENTS HAS NOW CHANGED.

You must respond AS IF 'I am bad and not good'.

For example:
When 'I am valuable' appears, respond with FALSE.
When 'I am worthless' appears, respond with TRUE.

Go as quickly as you can while being accurate.
If you make a mistake, hit the correct key as soon as possible.

Press E or I to continue.",FALSE,TRUE,6,target_4,0,3,3,3,3,0,12,3,e,1,0.135056018829,i,1,0.0507349967957,,,,59.8752617747,RRT,2016_May_01_1658,
"The next phase presents only the blue statements.

IMPORANT: THE RULE FOR THE BLUE STATEMENTS HAS NOW CHANGED.

You must respond AS IF 'I am bad and not good'.

For example:
When 'I am valuable' appears, respond with FALSE.
When 'I am worthless' appears, respond with TRUE.

Go as quickly as you can while being accurate.
If you make a mistake, hit the correct key as soon as possible.

Press E or I to continue.",FALSE,TRUE,4,target_2,0,3,3,3,3,1,13,1,i,1,0.0840308666229,None,0,,,,,59.8752617747,RRT,2016_May_01_1658,
"The next phase presents only the blue statements.

IMPORANT: THE RULE FOR THE BLUE STATEMENTS HAS NOW CHANGED.

You must respond AS IF 'I am bad and not good'.

For example:
When 'I am valuable' appears, respond with FALSE.
When 'I am worthless' appears, respond with TRUE.

Go as quickly as you can while being accurate.
If you make a mistake, hit the correct key as soon as possible.

Press E or I to continue.",FALSE,TRUE,3,target_1,0,3,3,3,3,2,14,0,e,1,0.235070943832,i,1,0.168056964874,,,,59.8752617747,RRT,2016_May_01_1658,
"The next phase presents only the blue statements.

IMPORANT: THE RULE FOR THE BLUE STATEMENTS HAS NOW CHANGED.

You must respond AS IF 'I am bad and not good'.

For example:
When 'I am valuable' appears, respond with FALSE.
When 'I am worthless' appears, respond with TRUE.

Go as quickly as you can while being accurate.
If you make a mistake, hit the correct key as soon as possible.

Press E or I to continue.",FALSE,TRUE,3,target_1,0,3,3,3,3,3,15,0,e,1,0.168179988861,i,1,0.117300987244,,,,59.8752617747,RRT,2016_May_01_1658,
"The next phase presents only the blue statements.

IMPORANT: THE RULE FOR THE BLUE STATEMENTS HAS NOW CHANGED.

You must respond AS IF 'I am bad and not good'.

For example:
When 'I am valuable' appears, respond with FALSE.
When 'I am worthless' appears, respond with TRUE.

Go as quickly as you can while being accurate.
If you make a mistake, hit the correct key as soon as possible.

Press E or I to continue.",FALSE,TRUE,4,target_2,0,3,3,3,4,0,16,1,i,1,0.151393890381,None,0,,,,,59.8752617747,RRT,2016_May_01_1658,
"The next phase presents only the blue statements.

IMPORANT: THE RULE FOR THE BLUE STATEMENTS HAS NOW CHANGED.

You must respond AS IF 'I am bad and not good'.

For example:
When 'I am valuable' appears, respond with FALSE.
When 'I am worthless' appears, respond with TRUE.

Go as quickly as you can while being accurate.
If you make a mistake, hit the correct key as soon as possible.

Press E or I to continue.",FALSE,TRUE,6,target_4,0,3,3,3,4,1,17,3,e,1,0.218755960464,i,1,0.183979988098,,,,59.8752617747,RRT,2016_May_01_1658,
"The next phase presents only the blue statements.

IMPORANT: THE RULE FOR THE BLUE STATEMENTS HAS NOW CHANGED.

You must respond AS IF 'I am bad and not good'.

For example:
When 'I am valuable' appears, respond with FALSE.
When 'I am worthless' appears, respond with TRUE.

Go as quickly as you can while being accurate.
If you make a mistake, hit the correct key as soon as possible.

Press E or I to continue.",FALSE,TRUE,5,target_3,0,3,3,3,4,2,18,2,i,1,0.0838940143585,None,0,,,,,59.8752617747,RRT,2016_May_01_1658,
"The next phase presents only the blue statements.

IMPORANT: THE RULE FOR THE BLUE STATEMENTS HAS NOW CHANGED.

You must respond AS IF 'I am bad and not good'.

For example:
When 'I am valuable' appears, respond with FALSE.
When 'I am worthless' appears, respond with TRUE.

Go as quickly as you can while being accurate.
If you make a mistake, hit the correct key as soon as possible.

Press E or I to continue.",FALSE,TRUE,3,target_1,0,3,3,3,4,3,19,0,e,1,0.218302965164,i,1,0.185877084732,,,,59.8752617747,RRT,2016_May_01_1658,
"The next phase presents both the orange words and blue statements.

You must both respond to the statements in blue AS IF 'I am bad and not good',
and categorise the orange words as referring to TRUE or FALSE.

Go as quickly as you can while being accurate.
If you make a mistake, hit the correct key as soon as possible.

Press E or I to continue.",FALSE,TRUE,6,target_4,0,4,4,4,0,0,0,5,e,1,0.184189081192,i,1,0.134838819504,,,,59.8752617747,RRT,2016_May_01_1658,
"The next phase presents both the orange words and blue statements.

You must both respond to the statements in blue AS IF 'I am bad and not good',
and categorise the orange words as referring to TRUE or FALSE.

Go as quickly as you can while being accurate.
If you make a mistake, hit the correct key as soon as possible.

Press E or I to continue.",FALSE,TRUE,5,target_3,0,4,4,4,0,1,1,4,i,1,0.0850970745087,None,0,,,,,59.8752617747,RRT,2016_May_01_1658,
"The next phase presents both the orange words and blue statements.

You must both respond to the statements in blue AS IF 'I am bad and not good',
and categorise the orange words as referring to TRUE or FALSE.

Go as quickly as you can while being accurate.
If you make a mistake, hit the correct key as soon as possible.

Press E or I to continue.",FALSE,TRUE,2,inducer_2,0,4,4,4,0,2,2,1,e,1,0.201131105423,i,1,0.135194778442,,,,59.8752617747,RRT,2016_May_01_1658,
"The next phase presents both the orange words and blue statements.

You must both respond to the statements in blue AS IF 'I am bad and not good',
and categorise the orange words as referring to TRUE or FALSE.

Go as quickly as you can while being accurate.
If you make a mistake, hit the correct key as soon as possible.

Press E or I to continue.",FALSE,TRUE,2,inducer_2,0,4,4,4,0,3,3,1,e,1,0.117799043655,i,1,0.0675399303436,,,,59.8752617747,RRT,2016_May_01_1658,
"The next phase presents both the orange words and blue statements.

You must both respond to the statements in blue AS IF 'I am bad and not good',
and categorise the orange words as referring to TRUE or FALSE.

Go as quickly as you can while being accurate.
If you make a mistake, hit the correct key as soon as possible.

Press E or I to continue.",FALSE,TRUE,5,target_3,0,4,4,4,0,4,4,4,i,1,0.101274967194,None,0,,,,,59.8752617747,RRT,2016_May_01_1658,
"The next phase presents both the orange words and blue statements.

You must both respond to the statements in blue AS IF 'I am bad and not good',
and categorise the orange words as referring to TRUE or FALSE.

Go as quickly as you can while being accurate.
If you make a mistake, hit the correct key as soon as possible.

Press E or I to continue.",FALSE,TRUE,4,target_2,0,4,4,4,0,5,5,3,i,1,0.150815010071,None,0,,,,,59.8752617747,RRT,2016_May_01_1658,
"The next phase presents both the orange words and blue statements.

You must both respond to the statements in blue AS IF 'I am bad and not good',
and categorise the orange words as referring to TRUE or FALSE.

Go as quickly as you can while being accurate.
If you make a mistake, hit the correct key as soon as possible.

Press E or I to continue.",FALSE,TRUE,6,target_4,0,4,4,4,1,0,6,5,e,1,0.168200016022,i,1,0.117890119553,,,,59.8752617747,RRT,2016_May_01_1658,
"The next phase presents both the orange words and blue statements.

You must both respond to the statements in blue AS IF 'I am bad and not good',
and categorise the orange words as referring to TRUE or FALSE.

Go as quickly as you can while being accurate.
If you make a mistake, hit the correct key as soon as possible.

Press E or I to continue.",FALSE,TRUE,2,inducer_2,0,4,4,4,1,1,7,1,e,1,0.134707212448,i,1,0.0668959617615,,,,59.8752617747,RRT,2016_May_01_1658,
"The next phase presents both the orange words and blue statements.

You must both respond to the statements in blue AS IF 'I am bad and not good',
and categorise the orange words as referring to TRUE or FALSE.

Go as quickly as you can while being accurate.
If you make a mistake, hit the correct key as soon as possible.

Press E or I to continue.",FALSE,TRUE,6,target_4,0,4,4,4,1,2,8,5,e,1,0.117569923401,i,1,0.0677180290222,,,,59.8752617747,RRT,2016_May_01_1658,
"The next phase presents both the orange words and blue statements.

You must both respond to the statements in blue AS IF 'I am bad and not good',
and categorise the orange words as referring to TRUE or FALSE.

Go as quickly as you can while being accurate.
If you make a mistake, hit the correct key as soon as possible.

Press E or I to continue.",FALSE,TRUE,3,target_1,0,4,4,4,1,3,9,2,e,1,0.118072986603,i,1,0.0669479370117,,,,59.8752617747,RRT,2016_May_01_1658,
"The next phase presents both the orange words and blue statements.

You must both respond to the statements in blue AS IF 'I am bad and not good',
and categorise the orange words as referring to TRUE or FALSE.

Go as quickly as you can while being accurate.
If you make a mistake, hit the correct key as soon as possible.

Press E or I to continue.",FALSE,TRUE,3,target_1,0,4,4,4,1,4,10,2,e,1,0.101294994354,i,1,0.0337460041046,,,,59.8752617747,RRT,2016_May_01_1658,
"The next phase presents both the orange words and blue statements.

You must both respond to the statements in blue AS IF 'I am bad and not good',
and categorise the orange words as referring to TRUE or FALSE.

Go as quickly as you can while being accurate.
If you make a mistake, hit the correct key as soon as possible.

Press E or I to continue.",FALSE,TRUE,4,target_2,0,4,4,4,1,5,11,3,i,1,0.0675601959229,None,0,,,,,59.8752617747,RRT,2016_May_01_1658,
"The next phase presents both the orange words and blue statements.

You must both respond to the statements in blue AS IF 'I am bad and not good',
and categorise the orange words as referring to TRUE or FALSE.

Go as quickly as you can while being accurate.
If you make a mistake, hit the correct key as soon as possible.

Press E or I to continue.",FALSE,TRUE,5,target_3,0,4,4,4,2,0,12,4,i,1,0.118463039398,None,0,,,,,59.8752617747,RRT,2016_May_01_1658,
"The next phase presents both the orange words and blue statements.

You must both respond to the statements in blue AS IF 'I am bad and not good',
and categorise the orange words as referring to TRUE or FALSE.

Go as quickly as you can while being accurate.
If you make a mistake, hit the correct key as soon as possible.

Press E or I to continue.",FALSE,TRUE,4,target_2,0,4,4,4,2,1,13,3,i,1,0.101749181747,None,0,,,,,59.8752617747,RRT,2016_May_01_1658,
"The next phase presents both the orange words and blue statements.

You must both respond to the statements in blue AS IF 'I am bad and not good',
and categorise the orange words as referring to TRUE or FALSE.

Go as quickly as you can while being accurate.
If you make a mistake, hit the correct key as soon as possible.

Press E or I to continue.",FALSE,TRUE,4,target_2,0,4,4,4,2,2,14,3,i,1,0.101375102997,None,0,,,,,59.8752617747,RRT,2016_May_01_1658,
"The next phase presents both the orange words and blue statements.

You must both respond to the statements in blue AS IF 'I am bad and not good',
and categorise the orange words as referring to TRUE or FALSE.

Go as quickly as you can while being accurate.
If you make a mistake, hit the correct key as soon as possible.

Press E or I to continue.",FALSE,TRUE,6,target_4,0,4,4,4,2,3,15,5,e,1,0.218195915222,i,1,0.151340961456,,,,59.8752617747,RRT,2016_May_01_1658,
"The next phase presents both the orange words and blue statements.

You must both respond to the statements in blue AS IF 'I am bad and not good',
and categorise the orange words as referring to TRUE or FALSE.

Go as quickly as you can while being accurate.
If you make a mistake, hit the correct key as soon as possible.

Press E or I to continue.",FALSE,TRUE,2,inducer_2,0,4,4,4,2,4,16,1,e,1,0.118596076965,i,1,0.0663001537323,,,,59.8752617747,RRT,2016_May_01_1658,
"The next phase presents both the orange words and blue statements.

You must both respond to the statements in blue AS IF 'I am bad and not good',
and categorise the orange words as referring to TRUE or FALSE.

Go as quickly as you can while being accurate.
If you make a mistake, hit the correct key as soon as possible.

Press E or I to continue.",FALSE,TRUE,2,inducer_2,0,4,4,4,2,5,17,1,e,1,0.100768089294,i,1,0.0338990688324,,,,59.8752617747,RRT,2016_May_01_1658,
"The next phase presents both the orange words and blue statements.

You must both respond to the statements in blue AS IF 'I am bad and not good',
and categorise the orange words as referring to TRUE or FALSE.

Go as quickly as you can while being accurate.
If you make a mistake, hit the correct key as soon as possible.

Press E or I to continue.",FALSE,TRUE,1,inducer_1,0,4,4,4,3,0,18,0,i,1,0.066822052002,None,0,,,,,59.8752617747,RRT,2016_May_01_1658,
"The next phase presents both the orange words and blue statements.

You must both respond to the statements in blue AS IF 'I am bad and not good',
and categorise the orange words as referring to TRUE or FALSE.

Go as quickly as you can while being accurate.
If you make a mistake, hit the correct key as soon as possible.

Press E or I to continue.",FALSE,TRUE,5,target_3,0,4,4,4,3,1,19,4,i,1,0.083899974823,None,0,,,,,59.8752617747,RRT,2016_May_01_1658,
"The next phase presents both the orange words and blue statements.

You must both respond to the statements in blue AS IF 'I am bad and not good',
and categorise the orange words as referring to TRUE or FALSE.

Go as quickly as you can while being accurate.
If you make a mistake, hit the correct key as soon as possible.

Press E or I to continue.",FALSE,TRUE,2,inducer_2,0,4,4,4,3,2,20,1,e,1,0.150939941406,i,1,0.101094961166,,,,59.8752617747,RRT,2016_May_01_1658,
"The next phase presents both the orange words and blue statements.

You must both respond to the statements in blue AS IF 'I am bad and not good',
and categorise the orange words as referring to TRUE or FALSE.

Go as quickly as you can while being accurate.
If you make a mistake, hit the correct key as soon as possible.

Press E or I to continue.",FALSE,TRUE,4,target_2,0,4,4,4,3,3,21,3,i,1,0.0523829460144,None,0,,,,,59.8752617747,RRT,2016_May_01_1658,
"The next phase presents both the orange words and blue statements.

You must both respond to the statements in blue AS IF 'I am bad and not good',
and categorise the orange words as referring to TRUE or FALSE.

Go as quickly as you can while being accurate.
If you make a mistake, hit the correct key as soon as possible.

Press E or I to continue.",FALSE,TRUE,3,target_1,0,4,4,4,3,4,22,2,e,1,0.151576042175,i,1,0.101681947708,,,,59.8752617747,RRT,2016_May_01_1658,
"The next phase presents both the orange words and blue statements.

You must both respond to the statements in blue AS IF 'I am bad and not good',
and categorise the orange words as referring to TRUE or FALSE.

Go as quickly as you can while being accurate.
If you make a mistake, hit the correct key as soon as possible.

Press E or I to continue.",FALSE,TRUE,4,target_2,0,4,4,4,3,5,23,3,i,1,0.0515451431274,None,0,,,,,59.8752617747,RRT,2016_May_01_1658,
"The next phase presents both the orange words and blue statements.

You must both respond to the statements in blue AS IF 'I am bad and not good',
and categorise the orange words as referring to TRUE or FALSE.

Go as quickly as you can while being accurate.
If you make a mistake, hit the correct key as soon as possible.

Press E or I to continue.",FALSE,TRUE,4,target_2,0,4,4,4,4,0,24,3,i,1,0.0676519870758,None,0,,,,,59.8752617747,RRT,2016_May_01_1658,
"The next phase presents both the orange words and blue statements.

You must both respond to the statements in blue AS IF 'I am bad and not good',
and categorise the orange words as referring to TRUE or FALSE.

Go as quickly as you can while being accurate.
If you make a mistake, hit the correct key as soon as possible.

Press E or I to continue.",FALSE,TRUE,3,target_1,0,4,4,4,4,1,25,2,e,1,0.151657104492,i,1,0.117380142212,,,,59.8752617747,RRT,2016_May_01_1658,
"The next phase presents both the orange words and blue statements.

You must both respond to the statements in blue AS IF 'I am bad and not good',
and categorise the orange words as referring to TRUE or FALSE.

Go as quickly as you can while being accurate.
If you make a mistake, hit the correct key as soon as possible.

Press E or I to continue.",FALSE,TRUE,2,inducer_2,0,4,4,4,4,2,26,1,e,1,0.100301980972,i,1,0.0674240589142,,,,59.8752617747,RRT,2016_May_01_1658,
"The next phase presents both the orange words and blue statements.

You must both respond to the statements in blue AS IF 'I am bad and not good',
and categorise the orange words as referring to TRUE or FALSE.

Go as quickly as you can while being accurate.
If you make a mistake, hit the correct key as soon as possible.

Press E or I to continue.",FALSE,TRUE,5,target_3,0,4,4,4,4,3,27,4,i,1,0.0182130336761,None,0,,,,,59.8752617747,RRT,2016_May_01_1658,
"The next phase presents both the orange words and blue statements.

You must both respond to the statements in blue AS IF 'I am bad and not good',
and categorise the orange words as referring to TRUE or FALSE.

Go as quickly as you can while being accurate.
If you make a mistake, hit the correct key as soon as possible.

Press E or I to continue.",FALSE,TRUE,1,inducer_1,0,4,4,4,4,4,28,0,i,1,0.100858926773,None,0,,,,,59.8752617747,RRT,2016_May_01_1658,
"The next phase presents both the orange words and blue statements.

You must both respond to the statements in blue AS IF 'I am bad and not good',
and categorise the orange words as referring to TRUE or FALSE.

Go as quickly as you can while being accurate.
If you make a mistake, hit the correct key as soon as possible.

Press E or I to continue.",FALSE,TRUE,1,inducer_1,0,4,4,4,4,5,29,0,i,1,0.0843780040741,None,0,,,,,59.8752617747,RRT,2016_May_01_1658,
"The next phase presents both the orange words and blue statements.

You must both respond to the statements in blue AS IF 'I am bad and not good',
and categorise the orange words as referring to TRUE or FALSE.

Go as quickly as you can while being accurate.
If you make a mistake, hit the correct key as soon as possible.

Press E or I to continue.",FALSE,TRUE,4,target_2,0,4,4,4,5,0,30,3,i,1,0.101600170135,None,0,,,,,59.8752617747,RRT,2016_May_01_1658,
"The next phase presents both the orange words and blue statements.

You must both respond to the statements in blue AS IF 'I am bad and not good',
and categorise the orange words as referring to TRUE or FALSE.

Go as quickly as you can while being accurate.
If you make a mistake, hit the correct key as soon as possible.

Press E or I to continue.",FALSE,TRUE,1,inducer_1,0,4,4,4,5,1,31,0,i,1,0.117925882339,None,0,,,,,59.8752617747,RRT,2016_May_01_1658,
"The next phase presents both the orange words and blue statements.

You must both respond to the statements in blue AS IF 'I am bad and not good',
and categorise the orange words as referring to TRUE or FALSE.

Go as quickly as you can while being accurate.
If you make a mistake, hit the correct key as soon as possible.

Press E or I to continue.",FALSE,TRUE,6,target_4,0,4,4,4,5,2,32,5,e,1,0.184801101685,i,1,0.117650032043,,,,59.8752617747,RRT,2016_May_01_1658,
"The next phase presents both the orange words and blue statements.

You must both respond to the statements in blue AS IF 'I am bad and not good',
and categorise the orange words as referring to TRUE or FALSE.

Go as quickly as you can while being accurate.
If you make a mistake, hit the correct key as soon as possible.

Press E or I to continue.",FALSE,TRUE,4,target_2,0,4,4,4,5,3,33,3,i,1,0.117736101151,None,0,,,,,59.8752617747,RRT,2016_May_01_1658,
"The next phase presents both the orange words and blue statements.

You must both respond to the statements in blue AS IF 'I am bad and not good',
and categorise the orange words as referring to TRUE or FALSE.

Go as quickly as you can while being accurate.
If you make a mistake, hit the correct key as soon as possible.

Press E or I to continue.",FALSE,TRUE,6,target_4,0,4,4,4,5,4,34,5,e,1,0.184849023819,i,1,0.100110054016,,,,59.8752617747,RRT,2016_May_01_1658,
"The next phase presents both the orange words and blue statements.

You must both respond to the statements in blue AS IF 'I am bad and not good',
and categorise the orange words as referring to TRUE or FALSE.

Go as quickly as you can while being accurate.
If you make a mistake, hit the correct key as soon as possible.

Press E or I to continue.",FALSE,TRUE,6,target_4,0,4,4,4,5,5,35,5,e,1,0.135205030441,i,1,0.0514559745789,,,,59.8752617747,RRT,2016_May_01_1658,
"The next phase presents both the orange words and blue statements.

You must both respond to the statements in blue AS IF 'I am bad and not good',
and categorise the orange words as referring to TRUE or FALSE.

Go as quickly as you can while being accurate.
If you make a mistake, hit the correct key as soon as possible.

Press E or I to continue.",FALSE,TRUE,6,target_4,0,4,4,4,6,0,36,5,e,1,0.101588010788,i,1,0.0337851047516,,,,59.8752617747,RRT,2016_May_01_1658,
"The next phase presents both the orange words and blue statements.

You must both respond to the statements in blue AS IF 'I am bad and not good',
and categorise the orange words as referring to TRUE or FALSE.

Go as quickly as you can while being accurate.
If you make a mistake, hit the correct key as soon as possible.

Press E or I to continue.",FALSE,TRUE,1,inducer_1,0,4,4,4,6,1,37,0,i,1,0.670761823654,e,1,0.100584983826,,,,59.8752617747,RRT,2016_May_01_1658,
"The next phase presents both the orange words and blue statements.

You must both respond to the statements in blue AS IF 'I am bad and not good',
and categorise the orange words as referring to TRUE or FALSE.

Go as quickly as you can while being accurate.
If you make a mistake, hit the correct key as soon as possible.

Press E or I to continue.",FALSE,TRUE,1,inducer_1,0,4,4,4,6,2,38,0,i,1,0.234737157822,None,0,,,,,59.8752617747,RRT,2016_May_01_1658,
"The next phase presents both the orange words and blue statements.

You must both respond to the statements in blue AS IF 'I am bad and not good',
and categorise the orange words as referring to TRUE or FALSE.

Go as quickly as you can while being accurate.
If you make a mistake, hit the correct key as soon as possible.

Press E or I to continue.",FALSE,TRUE,3,target_1,0,4,4,4,6,3,39,2,e,1,0.186069965363,i,1,0.136225938797,,,,59.8752617747,RRT,2016_May_01_1658,
"The next phase presents both the orange words and blue statements.

You must both respond to the statements in blue AS IF 'I am bad and not good',
and categorise the orange words as referring to TRUE or FALSE.

Go as quickly as you can while being accurate.
If you make a mistake, hit the correct key as soon as possible.

Press E or I to continue.",FALSE,TRUE,1,inducer_1,0,4,4,4,6,4,40,0,i,1,0.0507018566132,None,0,,,,,59.8752617747,RRT,2016_May_01_1658,
"The next phase presents both the orange words and blue statements.

You must both respond to the statements in blue AS IF 'I am bad and not good',
and categorise the orange words as referring to TRUE or FALSE.

Go as quickly as you can while being accurate.
If you make a mistake, hit the correct key as soon as possible.

Press E or I to continue.",FALSE,TRUE,6,target_4,0,4,4,4,6,5,41,5,e,1,0.16695022583,i,1,0.0836250782013,,,,59.8752617747,RRT,2016_May_01_1658,
"The next phase presents both the orange words and blue statements.

You must both respond to the statements in blue AS IF 'I am bad and not good',
and categorise the orange words as referring to TRUE or FALSE.

Go as quickly as you can while being accurate.
If you make a mistake, hit the correct key as soon as possible.

Press E or I to continue.",FALSE,TRUE,1,inducer_1,0,4,4,4,7,0,42,0,i,1,0.0352890491486,None,0,,,,,59.8752617747,RRT,2016_May_01_1658,
"The next phase presents both the orange words and blue statements.

You must both respond to the statements in blue AS IF 'I am bad and not good',
and categorise the orange words as referring to TRUE or FALSE.

Go as quickly as you can while being accurate.
If you make a mistake, hit the correct key as soon as possible.

Press E or I to continue.",FALSE,TRUE,2,inducer_2,0,4,4,4,7,1,43,1,e,1,0.185151815414,i,1,0.117670059204,,,,59.8752617747,RRT,2016_May_01_1658,
"The next phase presents both the orange words and blue statements.

You must both respond to the statements in blue AS IF 'I am bad and not good',
and categorise the orange words as referring to TRUE or FALSE.

Go as quickly as you can while being accurate.
If you make a mistake, hit the correct key as soon as possible.

Press E or I to continue.",FALSE,TRUE,5,target_3,0,4,4,4,7,2,44,4,i,1,0.0343120098114,None,0,,,,,59.8752617747,RRT,2016_May_01_1658,
"The next phase presents both the orange words and blue statements.

You must both respond to the statements in blue AS IF 'I am bad and not good',
and categorise the orange words as referring to TRUE or FALSE.

Go as quickly as you can while being accurate.
If you make a mistake, hit the correct key as soon as possible.

Press E or I to continue.",FALSE,TRUE,3,target_1,0,4,4,4,7,3,45,2,e,1,0.151443958282,i,1,0.100081920624,,,,59.8752617747,RRT,2016_May_01_1658,
"The next phase presents both the orange words and blue statements.

You must both respond to the statements in blue AS IF 'I am bad and not good',
and categorise the orange words as referring to TRUE or FALSE.

Go as quickly as you can while being accurate.
If you make a mistake, hit the correct key as soon as possible.

Press E or I to continue.",FALSE,TRUE,3,target_1,0,4,4,4,7,4,46,2,e,1,0.0833399295807,i,1,0.0509738922119,,,,59.8752617747,RRT,2016_May_01_1658,
"The next phase presents both the orange words and blue statements.

You must both respond to the statements in blue AS IF 'I am bad and not good',
and categorise the orange words as referring to TRUE or FALSE.

Go as quickly as you can while being accurate.
If you make a mistake, hit the correct key as soon as possible.

Press E or I to continue.",FALSE,TRUE,5,target_3,0,4,4,4,7,5,47,4,i,1,0.101125955582,None,0,,,,,59.8752617747,RRT,2016_May_01_1658,
"The next phase presents both the orange words and blue statements.

You must both respond to the statements in blue AS IF 'I am bad and not good',
and categorise the orange words as referring to TRUE or FALSE.

Go as quickly as you can while being accurate.
If you make a mistake, hit the correct key as soon as possible.

Press E or I to continue.",FALSE,TRUE,2,inducer_2,0,4,4,4,8,0,48,1,e,1,0.135365009308,i,1,0.101907014847,,,,59.8752617747,RRT,2016_May_01_1658,
"The next phase presents both the orange words and blue statements.

You must both respond to the statements in blue AS IF 'I am bad and not good',
and categorise the orange words as referring to TRUE or FALSE.

Go as quickly as you can while being accurate.
If you make a mistake, hit the correct key as soon as possible.

Press E or I to continue.",FALSE,TRUE,2,inducer_2,0,4,4,4,8,1,49,1,e,1,0.168167114258,i,1,0.086147069931,,,,59.8752617747,RRT,2016_May_01_1658,
"The next phase presents both the orange words and blue statements.

You must both respond to the statements in blue AS IF 'I am bad and not good',
and categorise the orange words as referring to TRUE or FALSE.

Go as quickly as you can while being accurate.
If you make a mistake, hit the correct key as soon as possible.

Press E or I to continue.",FALSE,TRUE,1,inducer_1,0,4,4,4,8,2,50,0,i,1,0.0339670181274,None,0,,,,,59.8752617747,RRT,2016_May_01_1658,
"The next phase presents both the orange words and blue statements.

You must both respond to the statements in blue AS IF 'I am bad and not good',
and categorise the orange words as referring to TRUE or FALSE.

Go as quickly as you can while being accurate.
If you make a mistake, hit the correct key as soon as possible.

Press E or I to continue.",FALSE,TRUE,3,target_1,0,4,4,4,8,3,51,2,e,1,0.151614904404,i,1,0.0844550132751,,,,59.8752617747,RRT,2016_May_01_1658,
"The next phase presents both the orange words and blue statements.

You must both respond to the statements in blue AS IF 'I am bad and not good',
and categorise the orange words as referring to TRUE or FALSE.

Go as quickly as you can while being accurate.
If you make a mistake, hit the correct key as soon as possible.

Press E or I to continue.",FALSE,TRUE,5,target_3,0,4,4,4,8,4,52,4,i,1,0.0679140090942,None,0,,,,,59.8752617747,RRT,2016_May_01_1658,
"The next phase presents both the orange words and blue statements.

You must both respond to the statements in blue AS IF 'I am bad and not good',
and categorise the orange words as referring to TRUE or FALSE.

Go as quickly as you can while being accurate.
If you make a mistake, hit the correct key as soon as possible.

Press E or I to continue.",FALSE,TRUE,4,target_2,0,4,4,4,8,5,53,3,i,1,0.0842201709747,None,0,,,,,59.8752617747,RRT,2016_May_01_1658,
"The next phase presents both the orange words and blue statements.

You must both respond to the statements in blue AS IF 'I am bad and not good',
and categorise the orange words as referring to TRUE or FALSE.

Go as quickly as you can while being accurate.
If you make a mistake, hit the correct key as soon as possible.

Press E or I to continue.",FALSE,TRUE,3,target_1,0,4,4,4,9,0,54,2,e,1,0.117001056671,i,1,0.0841019153595,,,,59.8752617747,RRT,2016_May_01_1658,
"The next phase presents both the orange words and blue statements.

You must both respond to the statements in blue AS IF 'I am bad and not good',
and categorise the orange words as referring to TRUE or FALSE.

Go as quickly as you can while being accurate.
If you make a mistake, hit the correct key as soon as possible.

Press E or I to continue.",FALSE,TRUE,6,target_4,0,4,4,4,9,1,55,5,e,1,0.117366075516,i,1,0.0677618980408,,,,59.8752617747,RRT,2016_May_01_1658,
"The next phase presents both the orange words and blue statements.

You must both respond to the statements in blue AS IF 'I am bad and not good',
and categorise the orange words as referring to TRUE or FALSE.

Go as quickly as you can while being accurate.
If you make a mistake, hit the correct key as soon as possible.

Press E or I to continue.",FALSE,TRUE,3,target_1,0,4,4,4,9,2,56,2,e,1,0.085587978363,i,1,0.0350079536438,,,,59.8752617747,RRT,2016_May_01_1658,
"The next phase presents both the orange words and blue statements.

You must both respond to the statements in blue AS IF 'I am bad and not good',
and categorise the orange words as referring to TRUE or FALSE.

Go as quickly as you can while being accurate.
If you make a mistake, hit the correct key as soon as possible.

Press E or I to continue.",FALSE,TRUE,5,target_3,0,4,4,4,9,3,57,4,i,1,0.0687689781189,None,0,,,,,59.8752617747,RRT,2016_May_01_1658,
"The next phase presents both the orange words and blue statements.

You must both respond to the statements in blue AS IF 'I am bad and not good',
and categorise the orange words as referring to TRUE or FALSE.

Go as quickly as you can while being accurate.
If you make a mistake, hit the correct key as soon as possible.

Press E or I to continue.",FALSE,TRUE,1,inducer_1,0,4,4,4,9,4,58,0,i,1,0.102332115173,None,0,,,,,59.8752617747,RRT,2016_May_01_1658,
"The next phase presents both the orange words and blue statements.

You must both respond to the statements in blue AS IF 'I am bad and not good',
and categorise the orange words as referring to TRUE or FALSE.

Go as quickly as you can while being accurate.
If you make a mistake, hit the correct key as soon as possible.

Press E or I to continue.",FALSE,TRUE,5,target_3,0,4,4,4,9,5,59,4,i,1,0.102209091187,None,0,,,,,59.8752617747,RRT,2016_May_01_1658,
